trial	stimulus	response	accuracy	reaction_time
1	A	A	1	2.288
2	D	C	0	0.96
3	C	A	0	0.926
4	A	A	0	0.562
5	C	C	0	1.803
6	A	C	1	1.237
7	B	C	1	2.229
8	C	A	1	1.446
9	C	A	0	2.436
10	D	C	1	0.871
11	C	D	1	2.237
12	C	D	0	2.053
13	B	B	0	2.042
14	C	C	1	2.19
15	B	B	1	2.022
16	B	D	1	1.752
17	B	B	1	0.762
18	B	C	1	0.565
19	A	C	1	2.342
20	D	C	0	1.733
