trial	stimulus	response	accuracy	reaction_time
1	B	A	0	1.184
2	C	B	0	0.696
3	A	D	0	1.5
4	B	D	1	1.726
5	B	C	1	1.931
6	C	D	1	0.82
7	A	A	1	0.76
8	B	A	0	0.643
9	D	D	1	1.627
10	D	A	1	1.757
11	D	B	1	0.508
12	A	B	0	2.182
13	B	D	1	0.546
14	D	B	1	1.451
15	A	B	1	1.762
16	D	C	1	2.061
17	C	C	1	1.771
18	B	B	1	1.933
19	B	D	1	1.078
20	A	C	1	1.957
